time	DeviceName	AccX(g)	AccY(g)	AccZ(g)	AsX(°/s)	AsY(°/s)	AsZ(°/s)	AngleX(°)	AngleY(°)	AngleZ(°)	HX(uT)	HY(uT)	HZ(uT)	Q0()	Q1()	Q2()	Q3()	Temperature(°C)	Height(m)	Pressure(kPa)	Version()	Battery level(%)
2025-11-11 9:36:46.561	WT901BLE68(3B2E17FE8DBA)	-0.020	0.045	0.992	0.671	1.770	-0.549	1.79	1.08	83.25	22.573	3.400	16.480	0.74612	0.00659	0.01736	0.66547	20.8	0.00	0.000	13113	100
2025-11-11 9:36:46.677	WT901BLE68(3B2E17FE8DBA)	-0.030	0.029	0.994	-1.526	-0.061	-2.930	1.68	1.13	83.18	22.573	3.400	16.480	0.74783	0.00446	0.01709	0.66357	20.8	0.00	0.000	13113	100
2025-11-11 9:36:46.755	WT901BLE68(3B2E17FE8DBA)	-0.055	-0.010	1.027	-1.099	1.404	0.488	1.47	1.25	83.10	22.573	3.400	16.480	0.74783	0.00446	0.01709	0.66357	20.8	0.00	0.000	13113	100
2025-11-11 9:36:46.871	WT901BLE68(3B2E17FE8DBA)	-0.025	0.034	0.989	-0.305	-0.488	0.916	1.54	1.30	83.03	22.573	3.400	16.480	0.74783	0.00446	0.01709	0.66357	20.8	0.00	0.000	13113	100
2025-11-11 9:36:46.962	WT901BLE68(3B2E17FE8DBA)	-0.040	0.044	0.993	-0.488	0.183	0.000	1.59	1.26	83.18	22.573	3.400	16.480	0.74783	0.00446	0.01709	0.66357	20.8	0.00	0.000	13113	100
2025-11-11 9:36:47.81	WT901BLE68(3B2E17FE8DBA)	-0.006	0.015	1.006	-0.854	-3.113	-0.427	1.52	1.15	83.17	22.320	3.207	16.387	0.74783	0.00446	0.01709	0.66357	20.8	0.00	0.000	13113	100
2025-11-11 9:36:47.160	WT901BLE68(3B2E17FE8DBA)	-0.006	0.053	0.975	0.488	0.610	0.244	1.60	1.05	83.24	22.320	3.207	16.387	0.74719	0.00342	0.01523	0.66434	20.8	0.00	0.000	13113	100
2025-11-11 9:36:47.277	WT901BLE68(3B2E17FE8DBA)	-0.012	0.031	1.008	-1.343	-0.183	0.000	1.44	1.04	83.29	22.320	3.207	16.387	0.74719	0.00342	0.01523	0.66434	20.8	0.00	0.000	13113	100
2025-11-11 9:36:47.368	WT901BLE68(3B2E17FE8DBA)	0.002	0.050	0.992	-0.427	1.526	-1.282	1.46	1.11	83.16	22.320	3.207	16.387	0.74719	0.00342	0.01523	0.66434	20.8	0.00	0.000	13113	100
2025-11-11 9:36:47.487	WT901BLE68(3B2E17FE8DBA)	0.042	0.066	0.991	0.671	0.610	-3.235	1.41	1.37	83.08	22.320	3.207	16.387	0.74719	0.00342	0.01523	0.66434	20.8	0.00	0.000	13113	100
2025-11-11 9:36:47.562	WT901BLE68(3B2E17FE8DBA)	-0.056	0.091	0.965	-4.578	6.104	-7.019	1.31	1.54	82.51	22.320	3.207	16.387	0.74719	0.00342	0.01523	0.66434	20.8	0.00	0.000	13113	100
2025-11-11 9:36:47.682	WT901BLE68(3B2E17FE8DBA)	-0.022	0.025	0.988	-11.536	9.888	-13.428	0.57	2.32	81.41	22.400	4.267	17.027	0.74719	0.00342	0.01523	0.66434	20.8	0.00	0.000	13113	100
2025-11-11 9:36:47.772	WT901BLE68(3B2E17FE8DBA)	-0.000	-0.005	0.992	-7.507	8.240	-9.033	-0.15	2.78	80.11	22.400	4.267	17.027	0.74719	0.00342	0.01523	0.66434	20.8	0.00	0.000	13113	100
2025-11-11 9:36:47.891	WT901BLE68(3B2E17FE8DBA)	-0.238	-0.009	0.979	-12.146	16.724	-12.390	-0.96	3.99	78.84	22.400	4.267	17.027	0.77216	-0.02939	0.02179	0.63431	20.8	0.00	0.000	13113	100
2025-11-11 9:36:47.968	WT901BLE68(3B2E17FE8DBA)	-0.110	-0.112	0.986	-6.592	9.521	-14.526	-2.26	5.21	76.60	22.400	4.267	17.027	0.77216	-0.02939	0.02179	0.63431	20.8	0.00	0.000	13113	100
2025-11-11 9:36:48.87	WT901BLE68(3B2E17FE8DBA)	-0.136	-0.076	0.972	-6.165	4.150	-4.883	-2.87	5.73	75.45	22.400	4.267	17.027	0.77216	-0.02939	0.02179	0.63431	20.8	0.00	0.000	13113	100
2025-11-11 9:36:48.164	WT901BLE68(3B2E17FE8DBA)	-0.101	-0.098	0.979	0.000	4.700	4.517	-3.44	6.32	74.93	22.400	4.267	17.027	0.77216	-0.02939	0.02179	0.63431	20.8	0.00	0.000	13113	100
2025-11-11 9:36:48.282	WT901BLE68(3B2E17FE8DBA)	-0.108	-0.035	0.960	-0.916	-7.874	-3.784	-3.38	5.91	74.54	22.647	7.913	19.187	0.77216	-0.02939	0.02179	0.63431	20.8	0.00	0.000	13113	100
2025-11-11 9:36:48.372	WT901BLE68(3B2E17FE8DBA)	-0.084	-0.023	0.968	-0.671	-7.996	-7.446	-3.38	5.50	73.79	22.647	7.913	19.187	0.77216	-0.02939	0.02179	0.63431	20.8	0.00	0.000	13113	100
2025-11-11 9:36:48.491	WT901BLE68(3B2E17FE8DBA)	-0.073	-0.061	1.023	-5.493	-4.578	-10.193	-3.96	5.05	72.76	22.647	7.913	19.187	0.80319	-0.05399	0.01462	0.59302	20.8	0.00	0.000	13113	100
2025-11-11 9:36:48.569	WT901BLE68(3B2E17FE8DBA)	-0.075	-0.071	0.982	0.671	-2.197	-16.235	-4.44	4.58	71.17	22.647	7.913	19.187	0.80319	-0.05399	0.01462	0.59302	20.8	0.00	0.000	13113	100
2025-11-11 9:36:48.686	WT901BLE68(3B2E17FE8DBA)	-0.065	-0.106	0.989	-5.249	-5.188	-13.977	-4.87	4.05	69.32	22.647	7.913	19.187	0.80319	-0.05399	0.01462	0.59302	20.8	0.00	0.000	13113	100
2025-11-11 9:36:48.778	WT901BLE68(3B2E17FE8DBA)	-0.072	-0.105	0.964	-3.662	-0.183	-3.540	-5.55	3.90	68.13	22.647	7.913	19.187	0.80319	-0.05399	0.01462	0.59302	20.8	0.00	0.000	13113	100
2025-11-11 9:36:48.897	WT901BLE68(3B2E17FE8DBA)	-0.032	-0.114	0.933	-17.334	7.019	0.549	-6.61	3.74	67.09	20.387	11.273	19.047	0.80319	-0.05399	0.01462	0.59302	20.8	0.00	0.000	13113	100
2025-11-11 9:36:48.972	WT901BLE68(3B2E17FE8DBA)	-0.046	-0.170	0.990	-15.198	-3.479	-0.122	-8.36	3.36	66.35	20.387	11.273	19.047	0.80319	-0.05399	0.01462	0.59302	20.8	0.00	0.000	13113	100
2025-11-11 9:36:49.91	WT901BLE68(3B2E17FE8DBA)	-0.130	-0.177	0.989	-2.319	11.292	1.770	-9.19	3.55	65.57	20.387	11.273	19.047	0.83640	-0.08560	-0.01584	0.54105	20.8	0.00	0.000	13113	100
2025-11-11 9:36:49.183	WT901BLE68(3B2E17FE8DBA)	-0.135	-0.228	1.029	-10.437	20.569	-10.132	-9.85	6.66	64.55	20.387	11.273	19.047	0.83640	-0.08560	-0.01584	0.54105	20.8	0.00	0.000	13113	100
2025-11-11 9:36:49.306	WT901BLE68(3B2E17FE8DBA)	-0.116	-0.166	0.987	-0.183	-4.333	-13.428	-10.05	7.49	63.27	20.387	11.273	19.047	0.83640	-0.08560	-0.01584	0.54105	20.8	0.00	0.000	13113	100
2025-11-11 9:36:49.377	WT901BLE68(3B2E17FE8DBA)	-0.099	-0.158	0.952	2.869	-2.808	-17.700	-10.04	6.54	61.42	20.387	11.273	19.047	0.83640	-0.08560	-0.01584	0.54105	20.8	0.00	0.000	13113	100
2025-11-11 9:36:49.497	WT901BLE68(3B2E17FE8DBA)	-0.085	-0.171	0.954	6.470	-15.564	-18.799	-9.80	5.34	59.62	20.413	14.160	21.200	0.83640	-0.08560	-0.01584	0.54105	20.8	0.00	0.000	13113	100
2025-11-11 9:36:49.572	WT901BLE68(3B2E17FE8DBA)	-0.035	-0.155	0.920	6.409	-12.512	-8.545	-9.60	4.08	58.22	20.413	14.160	21.200	0.83640	-0.08560	-0.01584	0.54105	20.8	0.00	0.000	13113	100
2025-11-11 9:36:49.693	WT901BLE68(3B2E17FE8DBA)	-0.026	-0.201	1.021	-6.226	-11.780	-14.465	-10.26	3.43	57.19	20.413	14.160	21.200	0.87357	-0.09265	-0.01770	0.47739	20.8	0.00	0.000	13113	100
2025-11-11 9:36:49.783	WT901BLE68(3B2E17FE8DBA)	0.004	-0.223	1.032	5.188	-16.541	-12.817	-10.70	2.52	55.81	20.413	14.160	21.200	0.87357	-0.09265	-0.01770	0.47739	20.8	0.00	0.000	13113	100
2025-11-11 9:36:49.904	WT901BLE68(3B2E17FE8DBA)	-0.073	-0.207	0.967	3.113	-2.625	-22.766	-10.71	1.82	53.62	20.413	14.160	21.200	0.87357	-0.09265	-0.01770	0.47739	20.8	0.00	0.000	13113	100
2025-11-11 9:36:49.977	WT901BLE68(3B2E17FE8DBA)	-0.034	-0.202	0.985	8.972	-2.441	-15.686	-10.14	1.73	51.21	20.413	14.160	21.200	0.87357	-0.09265	-0.01770	0.47739	20.8	0.00	0.000	13113	100
2025-11-11 9:36:50.96	WT901BLE68(3B2E17FE8DBA)	-0.046	-0.216	1.033	1.160	-6.775	-8.423	-9.98	1.19	49.72	16.473	16.953	19.853	0.87357	-0.09265	-0.01770	0.47739	20.8	0.00	0.000	13113	100
2025-11-11 9:36:50.189	WT901BLE68(3B2E17FE8DBA)	0.098	-0.115	0.883	-1.770	-22.644	-18.738	-10.00	-1.40	47.57	16.473	16.953	19.853	0.87357	-0.09265	-0.01770	0.47739	20.8	0.00	0.000	13113	100
2025-11-11 9:36:50.307	WT901BLE68(3B2E17FE8DBA)	0.041	-0.147	1.019	0.000	-3.967	-4.761	-10.31	-2.60	46.29	16.473	16.953	19.853	0.91711	-0.07410	-0.05515	0.38766	20.8	0.00	0.000	13113	100
2025-11-11 9:36:50.387	WT901BLE68(3B2E17FE8DBA)	-0.039	-0.155	0.989	1.282	11.292	-2.258	-10.12	-1.85	44.93	16.473	16.953	19.853	0.91711	-0.07410	-0.05515	0.38766	20.8	0.00	0.000	13113	100
2025-11-11 9:36:50.505	WT901BLE68(3B2E17FE8DBA)	0.008	-0.206	0.956	-7.019	9.033	7.874	-10.82	-0.60	44.41	16.473	16.953	19.853	0.91711	-0.07410	-0.05515	0.38766	20.8	0.00	0.000	13113	100
2025-11-11 9:36:50.735	WT901BLE68(3B2E17FE8DBA)	-0.033	-0.214	0.991	4.639	10.254	-0.671	-10.82	0.13	43.81	16.473	16.953	19.853	0.91711	-0.07410	-0.05515	0.38766	20.8	0.00	0.000	13113	100
2025-11-11 9:36:50.735	WT901BLE68(3B2E17FE8DBA)	-0.038	-0.207	1.010	11.841	12.695	-1.892	-10.16	1.34	43.00	16.473	16.953	19.853	0.91711	-0.07410	-0.05515	0.38766	20.8	0.00	0.000	13113	100
2025-11-11 9:36:50.786	WT901BLE68(3B2E17FE8DBA)	-0.044	-0.177	0.978	8.667	2.319	-3.479	-8.95	1.44	41.91	15.273	18.880	18.660	0.91711	-0.07410	-0.05515	0.38766	20.8	0.00	0.000	13113	100
2025-11-11 9:36:50.906	WT901BLE68(3B2E17FE8DBA)	-0.029	-0.148	0.978	4.578	-4.456	-3.113	-8.59	1.01	41.31	15.273	18.880	18.660	0.91711	-0.07410	-0.05515	0.38766	20.8	0.00	0.000	13113	100
2025-11-11 9:36:50.981	WT901BLE68(3B2E17FE8DBA)	-0.026	-0.120	0.977	7.385	11.414	0.671	-8.00	1.43	40.96	15.273	18.880	18.660	0.93524	-0.06598	-0.00507	0.34763	20.8	0.00	0.000	13113	100
2025-11-11 9:36:51.102	WT901BLE68(3B2E17FE8DBA)	-0.053	-0.119	0.999	3.967	9.583	1.099	-7.22	2.27	40.61	15.273	18.880	18.660	0.93524	-0.06598	-0.00507	0.34763	20.8	0.00	0.000	13113	100
2025-11-11 9:36:51.191	WT901BLE68(3B2E17FE8DBA)	-0.078	-0.127	1.040	0.488	2.991	-0.916	-6.53	2.89	40.41	15.273	18.880	18.660	0.93524	-0.06598	-0.00507	0.34763	20.8	0.00	0.000	13113	100
2025-11-11 9:36:51.312	WT901BLE68(3B2E17FE8DBA)	-0.055	-0.107	0.975	-7.141	-3.784	-2.563	-6.45	2.95	40.55	15.273	18.880	18.660	0.93524	-0.06598	-0.00507	0.34763	20.8	0.00	0.000	13113	100
2025-11-11 9:36:51.387	WT901BLE68(3B2E17FE8DBA)	-0.064	-0.123	0.993	1.892	2.319	-1.587	-6.89	2.38	40.58	15.947	18.233	16.607	0.93524	-0.06598	-0.00507	0.34763	20.8	0.00	0.000	13113	100
2025-11-11 9:36:51.508	WT901BLE68(3B2E17FE8DBA)	-0.095	-0.087	0.899	17.822	17.273	-3.296	-5.56	3.26	40.26	15.947	18.233	16.607	0.93524	-0.06598	-0.00507	0.34763	20.8	0.00	0.000	13113	100
2025-11-11 9:36:51.598	WT901BLE68(3B2E17FE8DBA)	-0.088	-0.069	0.996	2.808	2.625	5.127	-3.96	4.19	39.92	15.947	18.233	16.607	0.93924	-0.04562	0.02234	0.33932	20.8	0.00	0.000	13113	100
2025-11-11 9:36:51.720	WT901BLE68(3B2E17FE8DBA)	-0.156	-0.087	1.010	-2.258	5.066	-5.432	-4.09	4.22	39.52	15.947	18.233	16.607	0.93924	-0.04562	0.02234	0.33932	20.8	0.00	0.000	13113	100
2025-11-11 9:36:51.792	WT901BLE68(3B2E17FE8DBA)	-0.094	-0.114	0.959	-1.587	-6.653	-3.601	-4.28	4.28	38.85	15.947	18.233	16.607	0.93924	-0.04562	0.02234	0.33932	20.8	0.00	0.000	13113	100
2025-11-11 9:36:51.912	WT901BLE68(3B2E17FE8DBA)	-0.151	0.031	0.916	2.014	2.930	-14.832	-4.38	4.27	38.37	15.947	18.233	16.607	0.93924	-0.04562	0.02234	0.33932	20.8	0.00	0.000	13113	100
2025-11-11 9:36:51.987	WT901BLE68(3B2E17FE8DBA)	-0.099	-0.118	0.991	-27.161	-2.441	9.521	-6.03	4.42	38.19	16.107	20.127	16.073	0.93924	-0.04562	0.02234	0.33932	20.8	0.00	0.000	13113	100
2025-11-11 9:36:52.122	WT901BLE68(3B2E17FE8DBA)	-0.121	-0.112	0.989	10.315	8.301	14.343	-6.70	4.93	39.30	16.107	20.127	16.073	0.93924	-0.04562	0.02234	0.33932	20.8	0.00	0.000	13113	100
2025-11-11 9:36:52.197	WT901BLE68(3B2E17FE8DBA)	-0.173	-0.108	1.031	6.775	11.719	-1.709	-5.49	5.53	39.86	16.107	20.127	16.073	0.93759	-0.05664	0.03867	0.34076	20.8	0.00	0.000	13113	100
2025-11-11 9:36:52.320	WT901BLE68(3B2E17FE8DBA)	-0.204	-0.094	0.953	-2.441	0.305	-3.235	-4.59	6.32	39.66	16.107	20.127	16.073	0.93759	-0.05664	0.03867	0.34076	20.8	0.00	0.000	13113	100
2025-11-11 9:36:52.393	WT901BLE68(3B2E17FE8DBA)	-0.095	-0.118	0.885	-1.831	5.310	-4.517	-4.97	7.10	39.36	16.107	20.127	16.073	0.93759	-0.05664	0.03867	0.34076	20.8	0.00	0.000	13113	100
2025-11-11 9:36:52.511	WT901BLE68(3B2E17FE8DBA)	-0.200	-0.129	0.896	23.071	15.198	11.108	-5.21	8.36	40.54	16.107	20.127	16.073	0.93759	-0.05664	0.03867	0.34076	20.8	0.00	0.000	13113	100
2025-11-11 9:36:52.605	WT901BLE68(3B2E17FE8DBA)	-0.233	-0.159	0.996	-13.489	-20.752	-3.784	-5.95	7.94	40.77	18.060	19.853	16.247	0.93759	-0.05664	0.03867	0.34076	20.8	0.00	0.000	13113	100
2025-11-11 9:36:52.721	WT901BLE68(3B2E17FE8DBA)	-0.144	-0.154	0.987	-3.235	-1.099	-3.052	-6.90	8.06	41.02	18.060	19.853	16.247	0.93759	-0.05664	0.03867	0.34076	20.8	0.00	0.000	13113	100
2025-11-11 9:36:52.797	WT901BLE68(3B2E17FE8DBA)	-0.172	-0.139	0.995	7.385	5.066	-1.221	-7.14	7.87	41.22	18.060	19.853	16.247	0.93008	-0.07870	0.04440	0.35593	20.8	0.00	0.000	13113	100
2025-11-11 9:36:52.919	WT901BLE68(3B2E17FE8DBA)	-0.136	-0.121	1.001	2.747	0.427	-2.441	-6.64	7.97	41.41	18.060	19.853	16.247	0.93008	-0.07870	0.04440	0.35593	20.8	0.00	0.000	13113	100
2025-11-11 9:36:53.6	WT901BLE68(3B2E17FE8DBA)	-0.139	-0.112	0.996	-1.465	-5.249	0.732	-6.59	7.64	41.58	18.060	19.853	16.247	0.93008	-0.07870	0.04440	0.35593	20.8	0.00	0.000	13113	100
2025-11-11 9:36:53.126	WT901BLE68(3B2E17FE8DBA)	-0.130	-0.104	0.980	2.991	0.488	0.000	-6.66	7.40	41.73	18.060	19.853	16.247	0.93008	-0.07870	0.04440	0.35593	20.8	0.00	0.000	13113	100
2025-11-11 9:36:53.202	WT901BLE68(3B2E17FE8DBA)	-0.117	-0.102	1.006	4.456	2.747	1.099	-6.28	7.59	41.89	17.940	19.013	15.440	0.93008	-0.07870	0.04440	0.35593	20.8	0.00	0.000	13113	100
2025-11-11 9:36:53.323	WT901BLE68(3B2E17FE8DBA)	-0.145	-0.095	0.986	1.282	-1.648	2.441	-5.93	7.83	42.04	17.940	19.013	15.440	0.93008	-0.07870	0.04440	0.35593	20.8	0.00	0.000	13113	100
2025-11-11 9:36:53.399	WT901BLE68(3B2E17FE8DBA)	-0.125	-0.087	0.996	-0.122	-1.648	1.282	-5.74	7.88	42.36	17.940	19.013	15.440	0.92725	-0.07257	0.04309	0.36465	20.8	0.00	0.000	13113	100
